Folder: NanoscoPy/ExampleDataFiles

Note: README.md
# data-analysis
A general repo for the analysis of various kinds of experimental data.

File: Sample_Renishaw_Raman_Spec_Graphene.txt
3201.13	54.2774
3192.29	63.2515
3183.43	87.9855
3174.55	58.5806
3165.67	65.2546
3156.78	53.9334
3147.87	67.3287
3138.95	51.5513
3130.02	64.9145
3121.08	40.2391
3112.13	64.7449
3103.16	89.1865
3094.19	69.029
3085.2	57.8195
3076.2	62.1856
3067.19	88.7201
3058.16	77.5283
3049.13	68.5778
3040.08	81.7435
3031.02	59.5723
3021.95	63.901
3012.86	70.4187
3003.77	63.7331
2994.66	74.6232
2985.54	83.2926
2976.41	74.4268
2967.27	69.9565
2958.11	76.414
2948.95	74.1329
2939.77	71.8575
2930.57	67.4134
2921.37	76.0114
2912.15	71.5732
2902.93	77.9766
2893.69	73.5471
2884.43	41.0455
2875.17	69.0377
2865.89	75.41
2856.6	98.9789
2847.3	88.1034
2837.99	75.1104
2828.66	79.297
2819.32	107.016
2809.97	98.3238
2800.6	111.001
2791.23	127.908
2781.84	127.738
2772.44	159.459
2763.02	182.603
2753.6	252.335
2744.16	472.233
2734.71	649.248
2725.24	933.5
2715.77	1282.38
2706.28	1289.09
2696.77	1234.78
2687.26	1134.39
2677.73	977.629
2668.19	689.291
2658.64	539.814
2649.07	382.379
2639.49	285.878
2629.9	220.894
2620.3	197.705
2610.68	155.873
2601.05	116.229
2591.41	109.855
2581.75	101.427
2572.08	86.8208
2562.4	99.0903
2552.7	68.0329
2542.99	84.4118
2533.27	80.1859
2523.54	90.3442
2513.79	75.8688
2504.03	106.482
2494.25	92.0239
2484.47	79.6463
2474.67	108.091
2464.85	132.385
2455.02	148.477
2445.18	152.339
2435.33	111.564
2425.46	85.0787
2415.58	66.7569
2405.69	62.626
2395.78	68.5933
2385.86	68.5002
2375.92	28.1676
2365.98	54.2494
2356.01	54.1756
2346.04	54.1019
2336.05	58.0304
2326.05	57.9513
2316.03	65.8547
2306	63.772
2295.96	41.7933
2285.9	59.6232
2275.83	65.496
2265.75	65.4065
2255.65	63.3378
2245.53	47.4384
2235.41	61.1907
2225.27	65.0493
2215.11	64.9602
2204.95	82.5632
2194.76	41.225
2184.57	62.7329
2174.36	52.8582
2164.13	58.6507
2153.9	54.6654
2143.64	60.4392
2133.38	56.4621
2123.1	60.273
2112.8	38.8322
2102.49	56.2291
2092.17	44.534
2081.83	63.8085
2071.48	38.6185
2061.12	63.6325
2050.74	67.3958
2040.34	57.688
2029.93	63.369
2019.51	59.4461
2009.07	59.3638
1998.62	80.3169
1988.15	43.9221
1977.67	49.5822
1967.18	66.6527
1956.67	49.4447
1946.14	49.376
1935.6	68.2718
1925.05	54.9203
1914.48	51.0615
1903.89	37.7707
1893.3	47.1476
1882.68	62.1482
1872.05	52.6583
1861.41	43.1947
1850.75	61.8885
1840.08	63.6748
1829.39	44.8841
1818.69	50.4241
1807.97	52.2185
1797.24	40.9714
1786.49	63.2308
1775.73	53.8566
1764.95	55.6356
1754.16	50.0018
1743.35	68.4248
1732.53	60.9419
1721.69	60.8563
1710.84	46.0384
1699.97	62.5242
1689.08	60.5999
1678.18	62.3483
1667.27	62.2605
1656.34	67.6586
1645.39	82.1714
1634.43	74.7616
1623.45	138.387
1612.46	145.465
1601.45	308.675
1590.43	977.299
1579.39	2330.25
1568.33	710.56
1557.26	250.962
1546.18	156.854
1535.08	104.421
1523.96	97.0817
1512.82	80.7866
1501.67	80.6718
1490.51	73.3966
1479.33	71.5046
1468.13	42.8417
1456.92	49.9108
1445.69	62.2996
1434.44	55.101
1423.18	60.3472
1411.91	51.3992
1400.61	49.5559
1389.3	68.9257
1377.98	65.2976
1366.64	74.0156
1355.28	54.5524
1343.9	57.9888
1332.51	59.6604
1321.11	68.3359
1309.68	36.7435
1298.24	50.6682
1286.79	41.8721
1275.31	33.1011
1263.82	40.0122
1252.32	45.1661
1240.8	41.6318
1229.26	50.2326
1217.7	41.5119
1206.13	46.6336
1194.54	39.6676
1182.93	30.9994
1171.31	46.432
1159.67	49.7993
1148.02	48.0126
1136.34	49.6554
1124.65	54.7128
1112.95	52.9263
1101.22	51.1448
1089.48	61.2847
1077.72	62.8957
1065.95	45.8302
1054.16	44.0687
1042.35	55.8521
1030.52	89.5714
1018.68	145.131
1006.81	168.511
994.936	260.812
983.041	477.178
971.127	515.07
959.197	472.436
947.249	460.036
935.284	369.161
923.301	111.754
911.3	84.9421
899.282	83.1547
887.246	97.9788
875.193	69.6454
863.122	86.1012
851.033	82.6682
838.927	67.6884
826.802	82.4256
814.66	87.2427
802.5	87.1144
790.322	67.2912
778.126	60.6368
765.912	57.2746
753.68	58.8242
741.43	47.3163
729.162	45.6172
716.876	52.057
704.571	60.102
692.249	60.0131
679.908	95.555
667.548	90.562
655.171	79.1244
642.775	74.1699
630.361	86.9399
617.928	101.279
605.477	72.235
593.007	60.9078
580.519	78.4223
568.012	71.9133
555.486	111.699
542.942	157.738
530.379	505.92
517.797	9787.19
505.197	337.861
492.577	121.955
479.939	107.54
467.282	99.4834
454.606	78.837
441.911	130.674
429.197	127.334
416.464	141.27
403.711	130.087
390.94	115.807
378.149	137.51
365.339	135.743
352.51	129.307
339.661	157.113
326.794	155.323
313.906	192.311
301	274.095
288.073	188.639
275.128	177.547
262.162	158.781
249.177	150.845
236.173	162.912
223.149	125.836
210.105	107.258
197.041	110.155
183.957	94.7123
170.854	117.448
157.73	111.178
144.587	104.927
131.424	127.543
118.24	116.736
105.037	108.99
100.081	116.492